File: Pd_foil_standard_example_XANES_EXAFS/Pd_K_standard.dat.nor
# XDI/1.0 Athena/0.9.26
# Element.edge:                  K
# Element.symbol:                Pd
# Column.1:                      energy eV
# Column.2:                      norm
# Column.3:                      nbkg
# Column.4:                      flat
# Column.5:                      fbkg
# Column.6:                      nder
# Column.7:                      nsec
# Athena.e0:                     24343.2
# Athena.eshift:                 0
# Athena.rbkg:                   1.0
# Athena.importance:             1
# Athena.standard:               None
# Athena.bkg_kweight:            2
# Athena.edge_step:              1.67204
# Athena.fixed_step:             no
# Athena.pre_edge_range:         -150.000 -60.000
# Athena.pre_edge_line:          -1.310798 + 6.67811e-006 * E
# Athena.normalization_range:    200 1420.350
# Athena.post_edge_polynomial:   44.4093 - 0.00319638 * E + 5.72479e-08 * E^2 + 0 * E^3
# Athena.spline_range_energy:    0.000 857.246
# Athena.clamps:                 0 24
# Athena.spline_range_k:         0.000 15.000
# Athena.kweight:                2
# Athena.window:                 hanning
# Athena.phase_correction:       no
# Athena.k_range:                3.000 17.976
# Athena.dk:                     1
# Athena.r_range:                1 4
# Athena.dr:                     0.0
# Athena.window:                 Kaiser-Bessel
# Athena.plot_multiplier:        1
# Athena.y_offset:               0
# ///
#------------------------
#   e         norm        nbkg        flat        fbkg        nder        nsec
  24024.123       0.0127146   0.0127146   0.0127146   0.0127146  -8.7137e-05   1.49709e-07
  24035.906       0.0116987   0.0116987   0.0116987   0.0116987  -7.94873e-05   1.16597e-06
  24047.742       0.0108387   0.0108387   0.0108387   0.0108387  -6.82472e-05   5.74137e-07
  24059.788       0.0100459   0.0100459   0.0100459   0.0100459  -7.56265e-05  -1.49801e-06
  24071.882       0.00903175   0.00903175   0.00903175   0.00903175  -8.71129e-05  -2.12795e-07
  24083.507       0.00802781   0.00802781   0.00802781   0.00802781  -8.06007e-05   1.22908e-06
  24095.840       0.00714484   0.00714484   0.00714484   0.00714484  -6.58729e-05   5.69804e-07
  24107.666       0.00637991   0.00637991   0.00637991   0.00637991  -6.45904e-05  -4.39963e-07
  24119.746       0.00553563   0.00553563   0.00553563   0.00553563  -7.95471e-05  -9.04053e-07
  24131.701       0.00457044   0.00457044   0.00457044   0.00457044  -7.37301e-05   9.61428e-07
  24143.664       0.00374218   0.00374218   0.00374218   0.00374218  -6.06577e-05   8.87717e-07
  24155.722       0.00303673   0.00303673   0.00303673   0.00303673  -5.84708e-05   1.57617e-07
  24167.465       0.00237202   0.00237202   0.00237202   0.00237202  -6.41704e-05  -9.18319e-07
  24179.633       0.00154892   0.00154892   0.00154892   0.00154892  -6.37092e-05   1.01061e-06
  24191.504       0.000889082   0.000889082   0.000889082   0.000889082  -4.59387e-05   7.34038e-07
  24203.542       0.000326062   0.000326062   0.000326062   0.000326062  -4.60081e-05   1.0892e-06
  24215.746      -8.39202e-05  -8.39202e-05  -8.39202e-05  -8.39202e-05  -2.90646e-05  -2.10667e-08
  24227.767      -0.000490774  -0.000490774  -0.000490774  -0.000490774  -2.68413e-05   1.38776e-06
  24239.827      -0.00069743  -0.00069743  -0.00069743  -0.00069743  -5.0699e-06   1.87743e-06
  24252.132      -0.000625766  -0.000625766  -0.000625766  -0.000625766   1.55382e-05   2.12286e-06
  24264.133      -0.000250861  -0.000250861  -0.000250861  -0.000250861   4.96013e-05   3.50705e-06
  24276.385       0.000653534   0.000653534   0.000653534   0.000653534   0.000117335   8.89969e-06
  24288.543       0.00286748   0.00286748   0.00286748   0.00286748   0.000238817   8.88155e-06
  24300.609       0.0063551   0.0063551   0.0063551   0.0063551   0.000384835   1.82843e-05
  24311.305       0.0118308   0.0118308   0.0118308   0.0118308   0.000597114   2.24803e-05
  24313.580       0.0133312   0.0133312   0.0133312   0.0133312   0.000966463   0.000319181
  24314.308       0.0139928   0.0139928   0.0139928   0.0139928   0.000725281   1.11258e-05
  24315.088       0.014708   0.014708   0.014708   0.014708   0.000976306  -0.000162072
  24315.817       0.0152834   0.0152834   0.0152834   0.0152834   0.000943618   0.000684697
  24316.389       0.0160209   0.0160209   0.0160209   0.0160209   0.0011163  -0.000435804
  24317.274       0.0169402   0.0169402   0.0169402   0.0169402   0.00117862   8.46631e-05
  24318.002       0.0177519   0.0177519   0.0177519   0.0177519   0.000830148   0.000518509
  24318.678       0.0187611   0.0187611   0.0187611   0.0187611   0.00132924  -0.000961744
  24319.459       0.0193788   0.0193788   0.0193788   0.0193788   0.00187286   0.00207471
  24320.083       0.0207495   0.0207495   0.0207495   0.0207495   0.00108857  -0.00164473
  24320.864       0.0215275   0.0215275   0.0215275   0.0215275   0.00185186   0.00145219
  24321.541       0.0229177   0.0229177   0.0229177   0.0229177   0.00151013  -0.00063718
  24322.269       0.0241007   0.0241007   0.0241007   0.0241007   0.00190418   0.000205962
  24322.998       0.0253932   0.0253932   0.0253932   0.0253932   0.00151752   0.000472808
  24323.727       0.0269369   0.026937   0.026937   0.026937   0.00235649   0.000269208
  24324.352       0.028374   0.028374   0.028374   0.028374   0.00226899  -0.000344565
  24325.133       0.0299743   0.0299743   0.0299743   0.0299743   0.00233766   0.00146817
  24325.757       0.0318755   0.0318755   0.0318755   0.0318755   0.00300729  -0.000796024
  24326.486       0.0337009   0.0337009   0.0337009   0.0337009   0.00320849   0.000910893
  24327.424       0.0367593   0.0367593   0.0367593   0.0367593   0.00313075   0.0019292
  24328.049       0.0398028   0.0398028   0.0398028   0.0398028   0.00506382  -0.00221742
  24328.673       0.0420526   0.0420526   0.0420526   0.0420526   0.00453368   0.00221755
  24329.559       0.0467739   0.0467739   0.0467739   0.0467739   0.0053119   0.00116562
  24330.184       0.0506379   0.0506379   0.0506379   0.0506379   0.00703691   0.00152013
  24331.017       0.0566811   0.0566811   0.0566811   0.0566811   0.00751857   0.00200563
  24331.720       0.0628456   0.0628456   0.0628456   0.0628456   0.010085   0.000851644
  24332.476       0.0700033   0.0700033   0.0700033   0.0700033   0.011227   0.00657374
  24333.049       0.0775924   0.0775924   0.0775924   0.0775924   0.0119258   0.00186246
  24333.935       0.0906107   0.0906107   0.0906107   0.0906107   0.0165807  -0.000437035
  24334.612       0.100351       0.100351       0.100351       0.100351       0.0171253   0.0117207
  24335.185       0.113143       0.113143       0.113143       0.113143       0.0208869   0.000371072
  24336.175       0.135527       0.135527       0.135527       0.135527       0.0252415   0.00501997
  24336.800       0.152119       0.152119       0.152119       0.152119       0.0285577   0.00324336
  24337.478       0.171584       0.171584       0.171584       0.171584       0.0304361   0.0102826
  24338.260       0.199072       0.199072       0.199072       0.199072       0.0344514   0.00328692
  24339.042       0.229106       0.229106       0.229106       0.229106       0.0458894  -0.00388083
  24339.719       0.25363       0.25363       0.25363       0.25363       0.0381587   0.0152275
  24340.345       0.282723       0.282723       0.282723       0.282723       0.0449176   0.000138305
  24341.283       0.326467       0.326467       0.326467       0.326467       0.0493329  -0.000538417
  24341.909       0.355368       0.355368       0.355368       0.355368       0.0460917   0.0051136
  24342.586       0.389029       0.389029       0.389029       0.389029       0.049223  -0.000123736
  24343.212       0.420053       0.428903       0.420053       0.428903       0.0495322  -0.00643355
  24344.099       0.460141       0.438906       0.460362       0.439127       0.0466947   0.000401872
  24344.985       0.500604       0.495981       0.501045       0.496422       0.0399204  -0.00530221
  24345.559       0.525043       0.530598       0.525626       0.531181       0.0447203  -0.00168906
  24346.132       0.548775       0.563451       0.549501       0.564177       0.0372162   0.00123009
  24346.915       0.581741       0.605496       0.582662       0.606416       0.0459931  -0.00324478
  24347.697       0.612856       0.644467       0.613971       0.645582       0.0377979   0.00207678
  24348.532       0.647493       0.682783       0.648816       0.684105       0.0394062  -0.00463692
  24349.366       0.678903       0.717881       0.680433       0.719411       0.0402306   0.00737024
  24349.784       0.696535       0.734269       0.698168       0.735902       0.0411209  -0.00165578
  24350.566       0.728784       0.762987       0.730611       0.764814       0.0422961  -0.00305652
  24351.453       0.763214       0.792494       0.765261       0.794542       0.0391368   0.00699148
  24352.184       0.795833       0.814487       0.798062       0.816715       0.0423875  -0.00901694
  24353.019       0.827223       0.8372       0.829658       0.839636       0.0360926   0.00439415
  24353.593       0.850384       0.851389       0.852962       0.853968       0.0408703  -0.00289938
  24354.323       0.877984       0.867852       0.880743       0.870611       0.0325945  -0.00449647
  24354.897       0.898593       0.87959       0.901494       0.882492       0.0340838  -0.0111695
  24355.680       0.920308       0.893992       0.923404       0.897088       0.0270724  -0.000338966
  24356.411       0.940383       0.905859       0.94366       0.909135       0.0235024  -0.0111245
  24357.194       0.955528       0.916997       0.958999       0.920468       0.0174145  -0.00550761
  24357.925       0.966512       0.926024       0.970164       0.929676       0.0124867  -0.00765485
  24358.708       0.973901       0.934344       0.977747       0.938189       0.00608227  -0.00559974
  24359.543       0.977631       0.941806       0.981683       0.945858       0.00249151  -0.00520627
  24360.144       0.978026       0.946348       0.982228       0.950549      -0.000224169  -0.00409274
  24360.797       0.977201       0.950577       0.981564       0.95494      -0.00265207  -0.00354444
  24361.580       0.974037       0.954773       0.978594       0.95933      -0.00439313  -0.0010076
  24362.468       0.969656       0.958511       0.974433       0.963288      -0.00693859  -0.00343975
  24363.199       0.964078       0.960896       0.969035       0.965854      -0.00675036   0.0015973
  24363.669       0.960943       0.962148       0.966016       0.967221      -0.0074733  -0.00147954
  24364.505       0.954497       0.963919       0.959777       0.9692      -0.00833068  -0.00148075
  24365.288       0.947605       0.965163       0.953079       0.970637      -0.00767292   0.00118788
  24366.072       0.941491       0.966126       0.947159       0.971794      -0.00922015  -0.000707887
  24366.855       0.934971       0.966927       0.940832       0.972788      -0.00704675   0.000470761
  24367.587       0.929154       0.967628       0.935196       0.97367      -0.00757305   0.00235257
  24368.318       0.924597       0.968318       0.930819       0.97454      -0.00616222   0.00155299
  24369.050       0.92087       0.968996       0.927273       0.9754      -0.00399155   0.00355567
  24369.781       0.918909       0.969665       0.925493       0.976248      -0.00160098   0.00263313
  24370.461       0.918491       0.970275       0.925242       0.977027       0.000541819   0.00343827
  24371.192       0.919749       0.970923       0.926681       0.977855       0.00300654   0.00352333
  24371.872       0.922669       0.971515       0.929769       0.978615       0.00573694   0.00333314
  24372.603       0.927471       0.972143       0.934752       0.979423       0.00734208   0.00244995
  24373.335       0.933585       0.97276       0.941046       0.980221       0.0104371   0.00278104
  24374.067       0.941083       0.973367       0.948724       0.981008       0.00990859   0.00496662
  24374.747       0.950692       0.973921       0.958501       0.98173       0.0165332  -0.00142274
  24375.478       0.960387       0.974509       0.968377       0.982498       0.0141775   0.00574225
  24376.158       0.972451       0.975045       0.980608       0.983202       0.0165748  -0.00213643
  24376.890       0.984381       0.975613       0.992718       0.98395       0.018773   0.00464297
  24377.727        1.00086       0.97625        1.0094       0.984793       0.0200022  -0.000364623
  24378.616        1.01805       0.976912        1.02681       0.985674       0.0189275   0.00319757
  24379.243        1.03154       0.977371        1.04046       0.986288       0.0214646  -0.00483514
  24379.923        1.0441       0.97786        1.05319       0.986944       0.019068   0.00315473
  24380.655        1.0592       0.978377        1.06847       0.987642       0.0183241  -0.00445403
  24381.440        1.07227       0.978921        1.08173       0.988379       0.0157326  -0.00738906
  24382.015        1.07941       0.979313        1.08901       0.988912       0.00999682  -0.00532988
  24382.852        1.08641       0.979872        1.09622       0.989677       0.00529323  -0.0107304
  24383.585        1.08699       0.980351        1.09697       0.990337      -0.00225041  -0.00754771
  24384.317        1.08293       0.980821        1.0931       0.990987      -0.00872905  -0.0090903
  24385.049        1.0747       0.981282        1.08505       0.991628      -0.0141714  -0.00516543
  24385.834        1.06228       0.981765        1.07282       0.992304      -0.0202061  -0.0120238
  24386.410        1.04918       0.982113        1.05986       0.992793      -0.0183281   0.00236754
  24387.247        1.03148       0.982609        1.04236       0.993495      -0.0241649  -0.000821155
  24388.084        1.01313       0.983093        1.02422       0.994185      -0.0239068  -0.00907285
  24388.660       0.996956       0.98342        1.00819       0.994652      -0.025221   0.0104312
  24389.341       0.981931       0.983798       0.993331       0.995198      -0.0223289   0.000361181
  24390.283       0.961409       0.984309       0.973041       0.995941      -0.0203014   0.00411813
  24390.963       0.948934       0.98467       0.960733       0.996468      -0.0172218   0.0021005
  24391.591       0.938247       0.984996       0.9502       0.996948      -0.0154072   0.00578864
  24392.377       0.927743       0.985394       0.939889       0.997539      -0.0116728   0.00458204
  24393.214       0.920155       0.985809       0.932506       0.998159      -0.00700372   0.00306114
  24393.790       0.916138       0.986087       0.92863       0.998579      -0.00468204   0.00708298
  24394.471       0.914167       0.98641       0.926826       0.999069      -0.00147955   0.00338828
  24395.466       0.91411       0.986868       0.927013       0.999771       0.0012456   0.0033703
  24396.147       0.916114       0.987173       0.929184        1.00024       0.00316295   0.00117506
  24396.880       0.918859       0.987494       0.932108        1.00074       0.00474168   0.0017429
  24397.613       0.922541       0.987806       0.93597        1.00124       0.00512637   0.000979551
  24398.346       0.926749       0.98811       0.940358        1.00172       0.00608802   0.000204248
  24398.975       0.930458       0.988365       0.944221        1.00213       0.00574337   0.00123299
  24399.551       0.934155       0.988593       0.948059        1.0025       0.00622366  -0.00137698
  24400.389       0.938627       0.988917       0.952736        1.00303       0.00597746   0.00162179
  24401.175       0.943887       0.98921       0.958189        1.00351       0.00526572  -0.00233277
  24402.066       0.948108       0.989533       0.962627        1.00405       0.0054466   0.00227632
  24402.485       0.950694       0.989681       0.965316        1.0043       0.00574259  -0.00307999
  24403.323       0.954378       0.989969       0.969205        1.0048       0.00433897  -0.000119554
  24405.713       0.964511       0.990737       0.979922        1.00615       0.00368549  -0.000226562
  24409.540       0.977722       0.991807       0.994068        1.00815       0.00384193   0.000404012
  24413.158       0.995635       0.992646        1.01286        1.00988       0.00627722   0.00070649
  24416.924        1.02419       0.99335        1.04233        1.0115       0.00859806   0.000190737
  24420.796        1.0564       0.993902        1.07549        1.01299       0.00610509  -0.00170765
  24424.396        1.06376       0.99427        1.08373        1.01424      -0.00295749  -0.00243553
  24428.365        1.03521       0.994523        1.05614        1.01545      -0.00985952  -0.00102066
  24432.110       0.993958       0.994624        1.0158        1.01646      -0.0104925   0.000624861
  24435.881       0.961843       0.9946       0.984597        1.01735      -0.00531262   0.00166815
  24439.680       0.952837       0.994458       0.976511        1.01813      -7.20625e-05   0.00105405
  24443.405       0.958462       0.994213       0.983038        1.01879       0.00245215   0.000386998
  24447.305       0.970169       0.993848       0.995688        1.01937       0.00317251   6.35246e-06
  24451.122       0.981721       0.993387        1.00816        1.01983       0.00283165  -0.000103111
  24454.847       0.991565       0.992843        1.0189        1.02018       0.00252269  -4.39432e-05
  24458.521        1.00066       0.99222        1.02889        1.02044       0.00247043  -3.59646e-05
  24462.375        1.00969       0.991477        1.03884        1.02063       0.00196886  -0.000225801
  24466.274        1.01538       0.990639        1.04547        1.02073       0.000759756  -0.000437472
  24469.812        1.01498       0.989805        1.04591        1.02074      -0.00109994  -0.000541046
  24473.669        1.00654       0.988822        1.0384        1.02069      -0.00329471  -0.000548579
  24477.476       0.990509       0.98778        1.02329        1.02056      -0.00471146  -0.000102231
  24482.145       0.968877       0.986412        1.00277        1.02031      -0.00401011   0.000337961
  24487.430       0.953736       0.984752       0.988893        1.01991      -0.00108887   0.000729816
  24492.602       0.958111       0.983025       0.994503        1.01942       0.00233119   0.000431962
  24497.938       0.975128       0.981147        1.01279        1.01881       0.00334576  -8.38663e-05
  24503.099       0.989334       0.979249        1.02823        1.01814       0.00181948  -0.000333192
  24508.445       0.994888       0.977212        1.03505        1.01737       0.000489972  -0.000187551
  24513.750       0.995088       0.975129        1.03651        1.01655      -0.000345903  -0.000139146
  24518.979       0.991465       0.973028        1.03412        1.01569      -0.00100552  -0.000102169
  24524.330       0.984792       0.970841        1.02872        1.01476      -0.00145426  -5.87011e-05
  24529.518       0.976727       0.968696        1.02188        1.01384      -0.00154846  -1.12522e-05
  24534.935       0.967986       0.966442        1.01441        1.01287      -0.00189084  -0.000150059
  24540.143       0.955447       0.964274        1.0031        1.01193      -0.00273874  -1.6345e-05
  24545.519       0.942036       0.962046       0.990952        1.01096      -0.00190843   0.000214348
  24550.762       0.934939       0.959895       0.985085        1.01004      -0.000889274   0.000182446
  24556.171       0.932805       0.957711       0.984218        1.00912       0.000109925   0.000183485
  24561.352       0.935916       0.955662       0.988542        1.00829       0.00110905   0.000185081
  24566.780       0.944412       0.953565       0.998305        1.00746       0.00187661   5.84563e-05
  24572.069       0.954331       0.95157        1.00946        1.0067       0.00166792  -6.91707e-05
  24577.497       0.962443       0.949569        1.01883        1.00596       0.0013573  -5.37208e-05
  24582.715       0.968759       0.947689        1.02636        1.00529       0.000996042  -0.000100219
  24588.718       0.972827       0.945577        1.03182        1.00457       0.000285564  -0.000146373
  24595.519       0.970745       0.943249        1.03132        1.00382      -0.00117757  -0.00027164
  24602.329       0.956335       0.940983        1.01848        1.00313      -0.00289247  -0.000140118
  24609.220       0.935052       0.938754       0.998789        1.00249      -0.00257484   0.000165507
  24616.078       0.921723       0.936595       0.987039        1.00191      -0.00146276   0.000135216
  24622.839       0.914754       0.934524       0.981624        1.00139      -0.000616423   0.000101522
  24629.596       0.912415       0.932507       0.980835        1.00093      -0.000243388   1.65369e-05
  24636.565       0.910793       0.930479       0.980808        1.00049      -0.000150036   4.86079e-05
  24643.233       0.91145       0.928585       0.982988        1.00012       0.000584282   0.000164584
  24650.212       0.920003       0.92665       0.993131       0.999778       0.00162885   6.25036e-05
  24657.088       0.931393       0.924786        1.00609       0.999479       0.00153986  -5.08753e-05
  24663.882       0.940296       0.922985        1.01653       0.999219       0.00100125  -9.04001e-05
  24670.794       0.944954       0.921189        1.02276       0.998989       0.000271319  -0.000124793
  24677.605       0.943869       0.919453        1.02321       0.998793      -0.00059087  -0.000125268
  24684.543       0.936762       0.917716        1.01767       0.998621      -0.00146104  -0.000119737
  24691.295       0.924262       0.916054        1.00669       0.998479      -0.00210551  -5.09767e-05
  24698.253       0.908953       0.914366       0.992942       0.998354      -0.00207059   9.9162e-05
  24705.073       0.89856       0.912734       0.984077       0.998251      -0.00083476   0.000178543
  24711.890       0.896427       0.911122       0.983469       0.998164       3.53576e-07   6.85095e-05
  24718.843       0.897594       0.909494       0.986189       0.998088       0.000161382  -1.81212e-05
  24726.343       0.897895       0.907754       0.988159       0.998019      -0.000163984  -4.79469e-05
  24734.680       0.895066       0.905835       0.987184       0.997952      -0.000287789   3.80923e-05
  24743.142       0.894963       0.903903       0.988956       0.997896       0.000370869   7.93476e-05
  24751.330       0.900244       0.902049       0.996047       0.997852       0.00076767   1.5408e-05
  24759.559       0.906587       0.900201        1.0042       0.997818       0.000651711  -3.45823e-05
  24767.802       0.910573       0.898363        1.01       0.997793       0.000326601  -3.59109e-05
  24776.113       0.912167       0.896524        1.01342       0.997777       2.75028e-05  -5.17401e-05
  24784.651       0.910029       0.894649        1.01315       0.99777      -0.000569164  -8.13985e-05
  24792.841       0.902419       0.892864        1.00733       0.997772      -0.00131662  -7.71389e-05
  24801.120       0.889439       0.891072       0.996148       0.997782      -0.0016278   2.01821e-05
  24809.632       0.877528       0.889242       0.986086       0.9978      -0.000797004   0.000149513
  24817.810       0.876373       0.887497       0.986701       0.997825       0.000136886   3.02223e-05
  24826.203       0.877247       0.885717       0.989388       0.997857       9.27432e-06  -1.47282e-05
  24834.613       0.877057       0.883945       0.991008       0.997896      -9.25173e-06   4.45024e-06
  24843.039       0.877174       0.882181       0.992935       0.997942       5.17358e-05   1.02376e-05
  24851.186       0.877993       0.880486       0.995499       0.997992       0.000178979   1.8847e-05
  24859.810       0.880214       0.878702       0.999563       0.998051       0.000281809  -5.59977e-06
  24868.120       0.881963       0.876993        1.00308       0.998112       0.000115499  -2.22079e-05
  24876.483       0.882157       0.875283        1.00505       0.998179      -5.25604e-05  -1.69771e-05
  24885.044       0.881146       0.873541        1.00586       0.998252      -0.000213497  -2.37825e-05
  24893.972       0.878245       0.871735        1.00484       0.998332      -0.000394526  -1.31046e-05
  24903.630       0.873915       0.869792        1.00255       0.998423      -0.000520089  -1.31164e-05
  24913.569       0.868181       0.867802       0.9989       0.998521      -0.000659497  -9.56495e-06
  24923.469       0.861539       0.865831       0.99433       0.998622      -0.000525896   3.24588e-05
  24933.152       0.85818       0.863913       0.992991       0.998724      -0.000230536   1.81855e-05
  24943.089       0.856477       0.861953       0.993354       0.998831      -0.000148315   5.17776e-06
  24953.063       0.855283       0.859994       0.994229       0.99894      -7.23816e-05   7.44599e-06
  24962.684       0.854839       0.858113       0.995773       0.999047      -2.62146e-05   6.93188e-06
  24972.619       0.855055       0.856179       0.998035       0.999159       9.61978e-05   1.04994e-05
  24982.635       0.856319       0.854239        1.00135       0.999274       9.4238e-05  -1.06838e-05
  24992.670       0.856525       0.852303        1.00361       0.999392      -7.08991e-05  -1.83127e-05
  25002.354       0.854945       0.850443        1.00401       0.999507      -0.000243591  -1.39834e-05
  25012.192       0.852013       0.848563        1.00308       0.999626      -0.000302692   1.34658e-06
  25022.260       0.849147       0.846647        1.00225       0.999749      -0.000277461  -5.12513e-07
  25032.220       0.846261       0.844761        1.00137       0.999873      -0.000296982  -2.68527e-06
  25041.979       0.843173       0.842921        1.00025       0.999997      -0.000338598  -2.67646e-06
  25051.977       0.839746       0.841045       0.998827        1.00013      -0.000360034   1.50831e-06
  25061.960       0.836473       0.83918       0.99755        1.00026      -0.000279172   7.13763e-06
  25071.943       0.833914       0.837324       0.996978        1.00039      -0.000211367   9.90389e-06
  25081.723       0.832365       0.835515       0.997371        1.00052      -0.000115466   7.90459e-06
  25092.435       0.831515       0.833543       0.998639        1.00067      -4.87745e-05   4.37092e-06
  25103.755       0.831168       0.83147        1.00052        1.00082      -1.87828e-05   7.47145e-07
  25115.202       0.830915       0.829386        1.00252        1.00099      -4.78646e-05  -6.34922e-06
  25126.390       0.829857       0.82736        1.00364        1.00115      -0.000163881  -1.14966e-05
  25137.814       0.827294       0.825302        1.00331        1.00131      -0.000272682  -5.73186e-06
  25148.990       0.824065       0.823301        1.00224        1.00148      -0.000273902   4.36071e-06
  25160.638       0.821271       0.821227        1.0017        1.00166      -0.000210993   3.49486e-06
  25171.837       0.819034       0.819244        1.00162        1.00183      -0.000198734  -1.40157e-06
  25183.186       0.816584       0.817246        1.00134        1.002      -0.000230277  -3.85691e-06
  25194.633       0.813615       0.815243        1.00056        1.00218      -0.000280755  -1.15645e-06
  25206.010       0.810513       0.810513       0.999616       0.999616      -0.000239421   7.16154e-06
  25217.530       0.808311       0.808311       0.999595       0.999595      -0.00016918   4.25998e-06
  25228.767       0.806703       0.806703        1.0001        1.0001      -0.000128658   1.30821e-06
  25240.184       0.80524       0.80524        1.00078        1.00078      -0.000119918  -2.55077e-07
  25251.613       0.803741       0.803741        1.00142        1.00142      -0.000139567  -6.05458e-07
  25263.075       0.80216       0.80216        1.00197        1.00197      -0.000139899  -1.02339e-07
  25274.789       0.800529       0.800529        1.00251        1.00251      -0.000154635  -2.27992e-06
  25286.125       0.798661       0.798661        1.00274        1.00274      -0.000177799  -3.24677e-06
  25297.503       0.796361       0.796361        1.00253        1.00253      -0.000218293  -3.96703e-06
  25309.019       0.793502       0.793502        1.00178        1.00178      -0.000255215   1.26033e-06
  25321.000       0.790701       0.790701        1.00116        1.00116      -0.000209622   3.57642e-06
  25334.234       0.788213       0.788213        1.00107        1.00107      -0.000178964   3.02458e-07
  25347.121       0.78584       0.78584        1.00102        1.00102      -0.00019286  -1.92154e-06
  25360.047       0.783142       0.783142        1.00064        1.00064      -0.000224764  -2.67122e-07
  25372.906       0.780413       0.780413        1.00021        1.00021      -0.000183415   4.52321e-06
  25385.856       0.778414       0.778414        1.00051        1.00051      -0.000140127   1.31328e-06
  25398.817       0.776637       0.776637        1.00103        1.00103      -0.000138737  -9.58297e-07
  25411.662       0.774717       0.774717        1.00137        1.00137      -0.000164508  -2.29177e-06
  25424.509       0.772415       0.772415        1.00132        1.00132      -0.000186553   2.6579e-07
  25437.659       0.770104       0.770104        1.0013        1.0013      -0.000157206   1.55101e-06
  25450.683       0.768083       0.768083        1.00154        1.00154      -0.00016396  -1.41802e-06
  25463.684       0.76583       0.76583        1.00152        1.00152      -0.000187241  -2.97229e-06
  25476.687       0.763075       0.763075        1.001        1.001      -0.000227773  -9.12902e-07
  25489.567       0.760192       0.760193        1.00032        1.00032      -0.0002012   3.75973e-06
  25502.782       0.757874       0.757874        1.00024        1.00024      -0.000168081   9.69308e-07
  25515.954       0.755733       0.755733        1.00032        1.00032      -0.00016364  -9.9179e-07
  25528.975       0.753449       0.753449        1.00023        1.00023      -0.000192873  -9.60951e-07
  25541.971       0.751008       0.751008       0.999956       0.999956      -0.000183758   1.40476e-06
  25554.978       0.748804       0.748804       0.999914       0.999914      -0.000149266   1.66964e-06
  25568.332       0.746835       0.746835        1.00015        1.00015      -0.000147125  -1.08405e-06
  25581.797       0.744655       0.744655        1.00019        1.00019      -0.000176158  -1.61114e-06
  25596.080       0.742017       0.742017       0.999881       0.999881      -0.000184946   9.073e-07
  25610.321       0.739568       0.739568       0.999745       0.999745      -0.000157115   9.86617e-07
  25624.685       0.737302       0.737302       0.999799       0.999799      -0.000158355  -3.88881e-07
  25639.264       0.734919       0.734919       0.999756       0.999756      -0.000180706  -2.71096e-06
  25653.352       0.732067       0.732067       0.99915       0.99915      -0.000206461   1.09742e-06
  25667.757       0.729373       0.729373       0.99874       0.99874      -0.000168998   2.18928e-06
  25682.227       0.727125       0.727125       0.998771       0.998771      -0.000155738  -5.99673e-07
  25696.729       0.724747       0.724747       0.998663       0.998663      -0.000169904  -1.66699e-06
  25711.059       0.72205       0.72205       0.998194       0.998194      -0.000191248   1.20863e-06
  25725.353       0.719606       0.719606       0.99796       0.99796      -0.000155611   1.59444e-06
  25739.753       0.717473       0.717474       0.998039       0.998039      -0.000146962  -2.90335e-07
  25754.534       0.715222       0.715222       0.998043       0.998043      -0.000164009  -1.93008e-06
  25768.838       0.712639       0.712639       0.997627       0.997627      -0.000190828   3.19703e-07
  25783.334       0.710086       0.710086       0.997258       0.997258      -0.000157005   1.81028e-06
  25797.850       0.707913       0.707913       0.997257       0.997257      -0.000145399  -4.11019e-07
  25812.389       0.70565       0.70565       0.997154       0.997154      -0.000169555  -1.67067e-06
  25827.044       0.70301       0.70301       0.996677       0.996677      -0.000194652  -6.38317e-08
  25841.536       0.700386       0.700386       0.996178       0.996178      -0.000161179   2.06774e-06
  25856.113       0.698193       0.698193       0.996108       0.996108      -0.000148313  -2.75793e-07
  25863.562       0.697043       0.697043       0.996037       0.996037      -0.000154383  -8.15017e-07